File: example_1-tbig-ggg-bi2te3.asc
*TYPE		=  Raw
*CLASS		=  ASCII CLASS
*SAMPLE		=
*COMMENT	=
*FNAME		=
*DATE		=  25-Sep-22 13:21

*GROUP_COUNT	=  1
*GONIO		=  Standard, 300
*ATTACHMENT	=
*ASC		=  0, 0, 0.000000, 0.000000
*I_MONOCHRO	=  IPS_adaptor, 0.000000
*FILTER		=  None
*SLIT_NAME	=  0, IncidentSlitBox
*SLIT_NAME	=  1, ReceivingSlitBox1
*SLIT_NAME	=  2, ReceivingSlitBox2
*COUNTER	=  HyPix3000(H), 0
*POS_FORMAT	=  0
*SCAN_AXIS	=  2theta/theta
*MEAS_MODE	=  Continuous Scanning
*TARGET		=  29
*XRAY_CHAR	=  K-ALPHA
*WAVE_LENGTH1	=  1.54059
*WAVE_LENGTH2	=  1.54441
*THICKNESS	=  0, 0.000000
*MU		=  0, 0.000000
*SCAN_MODE	=  2theta/theta
*SPEED_DIM	=  sec./step
*XUNIT		=  deg.
*YUNIT		=  counts
*SCALE_MODE	=  1
*REP_COUNT	=  0
*SE_COUNT	=  0
*STD_MATERIAL	=  Unknown, Unknown, 0.000000, 0.000000, 0.000000, 0.000000, 0.000000, 0.000000
*LATT_CONS	=  0, Unknown, Unknown, 0.000000, 0.000000, 0.000000, 0.000000, 0.000000, 0.000000
*SEC_COUNT	=  1
*TSPEC_SIZE	=  0
*EXTRA_SIZE	=  0
*MEMO		=

*BEGIN
*GROUP		=  0
*START		=  3
*STOP		=  90
*STEP		=  0.02
*OFFSET		=  0.000000
*SPEED		=  1.2
*SLIT_SPEC	=  0, 0.050mm, 0.000000, 0.000000
*SLIT_SPEC	=  1, 0.250mm, 0.000000, 0.000000
*SLIT_SPEC	=  2, 0.300mm, 0.000000, 0.000000
*KV		=  45
*MA		=  200
*LOW		=  0.000000
*HIGH		=  0.000000
*CTEMPER	=  0, 0.000000
*CTEMPER	=  1, 0.000000
*CTEMPER	=  2, 0.000000
*PAREX		=  0, 0.000000
*PAREX		=  1, 0.000000
*PAREX		=  2, 0.000000
*PAREX		=  3, 0.000000
*PAREX		=  4, 0.000000
*PAREX		=  5, 0.000000
*PAREX		=  6, 0.000000
*PAREX		=  7, 0.000000
*PAREX		=  8, 0.000000
*PAREX		=  9, 0.000000
*PAREX		=  10, 0.000000
*PAREX		=  11, 0.000000
*PAREX		=  12, 0.000000
*PAREX		=  13, 0.000000
*PAREX		=  14, 0.000000
*PAREX		=  15, 0.000000
*FULL_SCALE	=  0.000000
*INDEX		=  0, 0, 0
*COUNT		=  4351
24428.3, 23516.5, 22567.2, 21876.4
21456.4, 20342.8, 19952.1, 19235.4
19043.5, 18274.4, 17624, 16968.7
16481.5, 16217, 15410.2, 14744.6
14699, 14360.8, 13816.4, 13480.7
13028, 12826.5, 12367.1, 12228.1
11818.2, 11578.8, 11425.7, 10926.4
10970.1, 10483.2, 10390, 10042.4
10074.9, 9562.54, 9503.04, 9139.31
9047.52, 8913.77, 8612.59, 8419.92
8213.09, 8021.59, 7782.17, 7831.65
7525.3, 7281.67, 7210.11, 7047.29
6892.64, 6746.07, 6495.51, 6309.66
6266.72, 6129.09, 5889.63, 5715.17
5525.89, 5505.08, 5397.21, 5248.97
5254.68, 4974, 4956.71, 4807.42
4620.14, 4470.96, 4460.68, 4375.78
4155.02, 4081.56, 3959.16, 3952.44
3727.26, 3734.32, 3644.25, 3486.14
3509.3, 3454.96, 3268.74, 3288.51
3342.63, 3064.2, 3058.71, 2901.18
2837.38, 2800.29, 2781.25, 2758.03
2596.51, 2595.1, 2578.63, 2430.67
2341.55, 2514.57, 2328.17, 2166.24
2257.99, 2192.19, 2119.41, 2067.8
2151.97, 2043.86, 2007.86, 1879.17
1906.7, 1849.11, 1771.77, 1795.31
1818.29, 1708.73, 1685.71, 1692.04
1618.9, 1584.03, 1551.34, 1606.44
1582.6, 1551.3, 1582.14, 1426.2
1455.02, 1386.62, 1327.75, 1394.72
1306.25, 1341.29, 1327.6, 1255.84
1231.05, 1262.95, 1224.93, 1169.55
1259.58, 1143.38, 1186.43, 1159.53
1133.17, 1059.11, 1109.11, 1092.45
1060.82, 1031.6, 956.067, 1064.24
942.37, 1023.07, 964.35, 962.327
891.615, 934.195, 883.622, 919.001
832.992, 867.956, 805.115, 842.728
824.881, 806.754, 710.311, 756.534
772.811, 720.572, 673.564, 731.692
718.1, 662.971, 682.792, 647.058
668.608, 659.89, 688.656, 648.948
561.731, 634.343, 573.182, 608.352
607.011, 571.035, 560.077, 564.146
524.584, 593.436, 557.636, 511.001
523.413, 487.779, 501.463, 493.945
544.255, 477.589, 470.808, 468.451
473.772, 453.014, 423.831, 443.733
395.724, 422.543, 423.209, 434.429
418.854, 403.1, 406.001, 385.75
375.93, 404.863, 381.041, 361.44
377.818, 343.682, 362.518, 359.652
347.934, 317.288, 337.724, 334.943
338.463, 337.01, 310.221, 313.348
306.537, 298.957, 318.107, 304.199
321.194, 311.546, 289.035, 278.667
285.245, 259.524, 261.868, 252.37
274.016, 271.123, 259.805, 267.885
273.096, 247.164, 248.71, 257.558
224.546, 226.062, 258.322, 266.316
210.376, 228.072, 224.299, 215.819
251.338, 237.195, 228.176, 232.325
180.766, 196.942, 222.823, 212.694
222.012, 223.816, 199.378, 248.956
233.174, 217.998, 216.098, 212.709
222.72, 204.832, 212.462, 189.75
195.652, 193.401, 226.176, 225.504
218.975, 193.574, 208.182, 209.692
194.605, 221.43, 208.195, 228.286
196.391, 191.993, 203.546, 201.58
202.405, 184.654, 218.565, 212.346
201.639, 224.887, 187.029, 203.571
202.792, 207.364, 180.876, 173.438
174.458, 178.078, 174.699, 197.495
183.758, 170.04, 130.379, 191.352
146.843, 161.213, 162.055, 166.628
157.592, 157.807, 149.71, 138.857
145.016, 143.089, 159.226, 171.26
169.657, 160.695, 137.561, 134.332
151.411, 155.476, 150.062, 151.844
150.436, 152.129, 158.673, 137.286
129.434, 165.845, 149.244, 137.386
143.728, 156.619, 139.074, 142.644
143.321, 158.816, 147.592, 139.844
133.335, 140.669, 152.611, 131.304
138.572, 155.08, 128.405, 143.675
129.084, 125.422, 148.28, 135.693
142.161, 125.515, 121.343, 118.551
125.146, 115.735, 132.824, 145.874
134.747, 130.442, 134.231, 136.626
132.713, 156.066, 139.82, 101.345
131.799, 118.559, 115.809, 128.819
127.866, 137.279, 126.635, 135.658
130.464, 112.805, 123.968, 117.582
114.613, 112.053, 120.729, 131.423
131.095, 119.704, 126.868, 115.208
144.476, 123.645, 109.02, 121.72
130.795, 136.295, 132.307, 129.688
115.5, 125.242, 111.462, 131.387
126.415, 129.001, 118.382, 106.7
130.784, 124.286, 116.658, 110.703
116.653, 126.114, 116.735, 148.726
128.366, 128.311, 121.77, 126.895
147.846, 110.675, 137.591, 117.229
116.765, 117.682, 122.918, 115.91
114.626, 119.907, 111.492, 114.556
125.75, 121.767, 135.554, 133.113
137.884, 111.746, 126.987, 125.42
118.05, 124.464, 114.396, 124.735
119.94, 125.596, 100.661, 114.62
129.522, 114.705, 118.825, 123.761
114.64, 128.536, 106.666, 124.036
114.816, 135.955, 122.27, 104.608
122.841, 118.714, 119.511, 131.879
126.556, 111.505, 111.44, 126.601
114.678, 110.692, 138.444, 140.857
105.193, 106.233, 136.805, 118.662
113.614, 110.919, 121.617, 105.625
124.613, 113.838, 121.501, 116.769
111.677, 137.92, 122.794, 118.81
117.654, 125.589, 114.539, 118.225
125.552, 113.453, 114.606, 108.544
112.443, 118.251, 126.214, 95.5045
108.903, 97.7829, 117.682, 106.25
113.625, 102.295, 118.76, 110.077
111.046, 119.445, 114.92, 117.862
94.4785, 118.463, 110.003, 135.65
121.529, 138.44, 107.814, 108.817
119.764, 119.298, 116.211, 135.954
96.1518, 105.031, 111.831, 98.9679
110.57, 104.605, 119.007, 125.432
122.664, 108.672, 141.076, 129.609
96.7916, 117.457, 106.963, 113.137
121.751, 119.17, 140.923, 120.659
112.71, 105.431, 99.8243, 118.5
104.598, 115.684, 125.542, 123.494
114.818, 117.586, 125.503, 115.001
115.776, 129.93, 127.873, 113.686
101.987, 113.027, 113.651, 108.494
118.337, 118.599, 123.839, 118.672
107.901, 112.75, 118.539, 117.829
114.052, 111.376, 119.386, 119.968
102.066, 97.8286, 119.111, 127.509
116.792, 131.816, 111.638, 123.136
130.44, 120.795, 124.747, 106.919
105.681, 119.995, 117.522, 112.589
111.989, 116.464, 118.797, 102.898
122.082, 127.816, 107.248, 98.3391
127.613, 90.9478, 122.693, 109.29
129.904, 126.666, 113.603, 114.099
105.741, 113.606, 101.479, 102.545
114.588, 117.775, 115.609, 101.687
122.472, 127.304, 107.334, 105.886
122.768, 121.162, 104.233, 103.103
149.653, 108.128, 104.63, 103.975
112.774, 115.764, 119.028, 126.425
118.861, 113.774, 134.445, 111.548
127.543, 114.759, 118.578, 122.996
126.508, 118.874, 123.118, 90.7764
92.4764, 121.057, 121.392, 113.504
117.353, 113.77, 117.47, 109.217
109.747, 123.107, 140.648, 111.763
119.634, 106.523, 123.616, 118.452
118.816, 116.679, 114.746, 121.916
120.875, 115.152, 119.965, 124.715
98.7304, 109.552, 107.961, 112.076
132.75, 115.716, 113.485, 116.15
114.638, 134.848, 129.33, 119.768
118.592, 105.992, 118.064, 128.543
104.502, 101.579, 107.96, 109.871
128.716, 138.727, 125.153, 123.347
132.949, 120.305, 109.388, 94.3023
117.629, 111.784, 113.275, 119.825
102.907, 126.819, 111.14, 119.079
135.73, 152.307, 125.89, 122.999
153.676, 155.996, 133.762, 111.063
136.983, 164.05, 162.603, 166.662
160.9, 167.075, 160.705, 162.259
177.624, 176.969, 173.618, 185.705
190.962, 214.355, 200.028, 217.954
198.308, 186.254, 156.684, 163.961
209.877, 168.862, 148.664, 162.618
151.94, 165.749, 172.481, 167.089
180.885, 142.887, 145.026, 139.268
131.604, 138.386, 136.047, 127.476
134.953, 119.14, 117.74, 119.58
118.013, 113.905, 116.432, 105.02
114.491, 134.504, 140.841, 108.95
111.859, 130.742, 125.776, 111.008
136.265, 126.448, 115.083, 119.409
111.593, 129.781, 102.619, 138.436
106.909, 119.61, 141.86, 125.425
124.718, 133.871, 118.196, 100.201
131.715, 102.001, 148.769, 109.737
106.675, 116.461, 125.289, 119.777
106.058, 117.165, 118.773, 120.415
150.524, 106.997, 115.742, 109.768
121.333, 98.1097, 118.738, 127.799
112.638, 108.998, 118.126, 113.042
116.38, 125.037, 114.476, 111.59
93.4342, 112.558, 104.467, 121.205
106.436, 108.875, 112.418, 126.404
115.719, 96.8828, 118.081, 127.821
113.902, 128.887, 113.343, 121.501
115.682, 94.7741, 118.046, 113.887
101.884, 115.83, 106.279, 115.998
94.5227, 119.474, 110.943, 110.957
112.811, 117.969, 134.998, 112.762
114.838, 84.8436, 102.792, 109.234
132.828, 133.334, 132.769, 102.464
104.854, 120.617, 120.664, 111.323
107.51, 107.15, 91.9409, 114.847
114.726, 99.5824, 125.753, 104.501
107.225, 110.783, 114.666, 108.88
88.6651, 127.54, 133.723, 108.586
126.86, 123.671, 108.621, 112.774
112.807, 100.28, 111.809, 100.536
112.576, 118.479, 119.947, 126.067
141.089, 107.843, 96.564, 131.715
102.321, 107.895, 130.6, 126.638
103.008, 118.694, 120.751, 111.503
115.837, 110.047, 116.981, 121.596
108.303, 105.659, 89.5764, 120.815
123.487, 111.788, 129.425, 98.3425
97.085, 126.548, 118.84, 108.354
113.804, 102.719, 124.631, 115.913
112.018, 115.516, 100.625, 116.549
105.792, 118.916, 100.434, 119.891
120.78, 122.574, 117.076, 113.804
121.337, 100.29, 106.529, 113.794
98.5113, 102.662, 90.743, 118.462
111.431, 102.848, 117.194, 123.165
119.394, 113.751, 123.614, 115.787
109.494, 106.939, 112.358, 99.7882
115.814, 115.817, 112.506, 133.899
106.59, 119.481, 119.743, 105.659
107.979, 100.666, 115.848, 108.066
110.691, 117.017, 108.565, 107.643
123.12, 116.883, 111.412, 106.122
114.505, 99.7169, 121.451, 129.409
114.896, 123.487, 115.831, 101.603
91.6533, 134.622, 101.476, 118.958
128.157, 141.208, 118.842, 93.5385
124.543, 128.308, 133.387, 94.3936
96.3955, 115.794, 123.814, 111.946
131.975, 109.022, 119.369, 123.029
136.969, 116.35, 131.897, 119.216
109.391, 130.593, 104.905, 111.719
111.228, 105.727, 109.105, 113.385
118.005, 103.021, 103.012, 117.448
120.822, 109.58, 102.18, 108.176
128.666, 119.928, 121.106, 115.669
119.014, 103.907, 103.625, 101.689
113.377, 110.844, 108.164, 123.108
128.505, 114.548, 118.553, 110.69
113.001, 111.921, 111.631, 126.048
121.783, 122.91, 118.743, 118.959
90.2768, 108.678, 122.019, 106.786
126.137, 117.021, 109.741, 107.141
120.189, 101.862, 130.038, 94.8869
102.281, 87.7665, 121.416, 114.965
109.655, 128.323, 109.016, 120.647
111.445, 131.824, 140.392, 108.186
132.907, 101.274, 110.414, 136.619
114.647, 115.916, 125.669, 126.382
142.971, 126.309, 127.749, 127.511
130.616, 125.822, 115.28, 133.668
139.907, 154.776, 161.19, 159.98
175.826, 189.586, 193.035, 217.936
234.432, 265.884, 262.866, 257.496
254.816, 299.081, 346.273, 332.704
451.42, 579.045, 631.864, 729.715
1079.63, 3553.15, 17003.3, 15721.7
7234.39, 8316.14, 8569.52, 4180.9
1314.17, 590.384, 343.878, 270.812
277.881, 234.093, 240.977, 193.927
180.554, 184.092, 210.102, 184.535
201.439, 209.958, 206.166, 183.776
195.975, 232.152, 188.188, 201.998
211.421, 194.8, 174.893, 183.436
199.785, 176.015, 175.575, 149.591
153.183, 142.478, 128.952, 153.147
130.611, 130.961, 163.435, 120.271
128.03, 162.7, 163.818, 181.909
197.257, 190.916, 174.496, 179.81
207.8, 180.068, 167.887, 192.54
190.876, 186.338, 197.022, 242.467
231.105, 211.895, 187.405, 191.833
217.881, 179.947, 151.582, 161.596
163.987, 178.546, 165.652, 169.013
153.432, 148.146, 163.798, 147.761
153.184, 149.367, 135.799, 109.036
138.625, 118.308, 135.446, 121.517
126.04, 118.198, 117.535, 109.486
104.083, 131.966, 98.1577, 132.613
119.245, 99.8814, 113.717, 122.785
120.652, 119.603, 112.16, 129.846
133.192, 108.884, 114.484, 112.485
97.7552, 123.762, 115.67, 118.144
127.911, 118.297, 120.904, 128.557
139.312, 122.751, 119.037, 111.856
111.271, 127.71, 130.041, 108.707
119.357, 127.707, 121.9, 114.386
143.675, 147.933, 147.434, 140.592
154.742, 170.718, 173.877, 175.02
248.468, 266.396, 276.755, 335.481
384.106, 362.649, 377.296, 370.022
322.754, 306.898, 270.917, 254.292
219.924, 190.933, 152.768, 144.776
150.868, 138.347, 138.003, 120.816
143.657, 125.793, 123.167, 131.576
128.727, 135.492, 105.66, 119.966
107.496, 121.653, 123.044, 120.625
106.104, 140.661, 122.357, 112.654
110.571, 124.399, 98.7957, 105.644
150.064, 131.925, 137.621, 150.411
156.613, 135.338, 146.911, 131.494
130.334, 120.666, 108.825, 108.307
126.79, 110.769, 118.07, 136.7
119.442, 109.122, 116.596, 123.69
105.238, 116.617, 117.68, 107.612
97.766, 98.6393, 98.1618, 122.347
113.461, 125.726, 119.002, 91.9926
117.802, 99.3371, 92.6088, 135.68
99.6642, 129.909, 123.608, 128.945
116.667, 92.8562, 119.926, 98.6128
117.503, 102.489, 98.6107, 95.7475
119.64, 111.726, 114.587, 129.018
110.803, 113.877, 131.694, 120.898
127.99, 127.092, 99.9555, 108.694
116.558, 108.967, 128.04, 126.616
112.985, 117.763, 94.3873, 96.5448
114.804, 110.748, 110.36, 114.697
112.397, 105.97, 110.575, 115.771
104.703, 100.304, 110.602, 123.273
125.508, 110.625, 119.951, 93.8979
109.983, 122.636, 109.876, 102.91
94.5607, 102.397, 110.904, 116.913
106.363, 114.773, 118.072, 120.027
130.076, 119.318, 87.4693, 112.959
111.707, 123.6, 105.724, 104.928
106.49, 106.641, 124.365, 107.75
142.621, 121.583, 102.757, 98.73
130.776, 122.233, 103.812, 132.652
110.881, 96.7303, 111.455, 113.686
109.428, 126.376, 106.569, 111.797
122.757, 89.3714, 102.782, 115.6
110.45, 105.53, 116.724, 103.657
110.147, 108.902, 112.442, 122.991
122.908, 107.893, 109.991, 102.55
118.405, 98.9224, 102.775, 121.01
117.8, 110.309, 103.603, 100.03
111.426, 126.977, 116.072, 88.8403
105.632, 104.822, 118.06, 123.85
111.549, 120.58, 115.962, 98.7599
95.6213, 104.822, 94.7969, 121.846
121.792, 111.637, 124.334, 103.925
100.782, 103.001, 133.821, 104.831
118.77, 118.553, 101.652, 102.921
122.259, 108.679, 103.505, 106.569
120.498, 104.876, 114.848, 90.2509
103.015, 109.391, 92.8188, 105.551
97.5901, 122.123, 111.023, 100.376
120.723, 93.709, 101.954, 125.889
111.955, 99.4367, 122.687, 99.6767
124.325, 103.594, 106.629, 124.775
105.767, 117.525, 98.6487, 106.394
111.176, 104.91, 106.741, 95.9515
104.574, 106.648, 108.273, 115.819
114.869, 99.8701, 107.843, 103.055
103.666, 111.733, 105.502, 119.954
119.449, 107.267, 105.854, 95.1559
102.734, 103.964, 109.728, 110.018
105.209, 91.7389, 92.9673, 93.5644
100.083, 110.867, 97.905, 109.792
104.44, 99.9202, 113.456, 106.236
107.639, 90.6152, 106.687, 94.4225
101.123, 114.638, 119.762, 115.699
106.808, 108.235, 108.329, 110.642
114.676, 96.7976, 91.7823, 91.7841
91.6634, 94.7566, 99.2501, 109.878
96.4669, 112.814, 88.3779, 102.794
94.5559, 115.314, 95.0254, 110.72
105.732, 116.577, 84.4457, 94.4382
93.0021, 98.4152, 103.481, 113.805
104.962, 98.5886, 96.7335, 102.088
99.702, 113.658, 118.652, 104.775
100.114, 90.6849, 122.742, 125.814
101.925, 96.7992, 105.04, 105.078
95.3939, 111.579, 115.671, 94.8599
101.011, 100.476, 102.778, 113.483
108.839, 102.858, 95.9371, 114.306
98.1172, 103.062, 117.214, 108.951
97.5193, 97.8158, 100.642, 105.792
109.878, 105.006, 117.491, 100.087
99.4953, 99.8707, 102.788, 106.041
98.5465, 96.1084, 108.55, 102.093
104.792, 104.674, 92.3071, 122.612
98.5585, 104.776, 97.0641, 94.9365
105.822, 92.7865, 99.8672, 109.732
103.143, 86.8361, 96.6779, 137.283
102.808, 107.004, 104.649, 113.926
107.835, 117.893, 109.13, 113.524
103.943, 94.6622, 106.488, 125.087
94.8471, 92.8665, 106.571, 101.762
118.956, 108.983, 113.393, 114.699
110.921, 124.932, 105.564, 130.3
109.018, 124.643, 113.976, 100.795
124.588, 97.5934, 91.8045, 93.361
111.246, 111.378, 102.825, 111.67
103.636, 110.343, 99.5994, 109.486
120.919, 105.513, 106.815, 105.814
105.832, 96.0857, 105.837, 104.156
111.653, 113.569, 116.689, 122.888
124.293, 117.601, 97.6217, 126.647
111.935, 101.686, 106.675, 104.627
95.7684, 112.179, 129.729, 103.981
114.394, 107.806, 106.998, 107.179
121.463, 106.039, 91.6612, 129.671
100.957, 118.953, 100.826, 87.7971
104.957, 100.775, 91.6991, 124.724
113.721, 115.333, 119.522, 111.334
94.419, 99.6864, 123.693, 107.986
117.515, 100.643, 101.647, 93.9655
126.73, 113.622, 111.939, 109.616
95.7316, 118.907, 98.4858, 111.399
122.27, 110.866, 115.033, 103.363
103.773, 116.835, 113.602, 99.7003
99.6681, 122.6, 131.487, 111.513
107.252, 103.847, 106.401, 106.769
102.764, 110.992, 112.735, 97.9488
115.608, 130.118, 92.8561, 103.266
118.834, 93.4789, 111.43, 102.299
128.207, 111.449, 93.4497, 117.902
104.108, 128.494, 111.273, 112.414
100.3, 116.595, 105.398, 110.76
107.188, 80.9458, 120.805, 98.8091
87.2474, 120.116, 105.739, 128.367
112.087, 106.363, 140.709, 115.692
119.816, 134.89, 114.973, 104.798
140.558, 105.891, 141.544, 115.676
122.97, 121.879, 121.751, 92.3255
101.878, 91.517, 114.793, 100.085
109.846, 100.778, 107.358, 90.0258
108.847, 118.422, 94.4615, 104.621
113.875, 111.843, 126.71, 108.841
129.558, 117.842, 98.5647, 116.656
107.874, 131.464, 108.11, 113.027
111.733, 100.859, 106.88, 121.546
98.6917, 107.264, 96.9706, 98.0117
114.636, 115.953, 86.9754, 111.379
116.689, 93.6577, 117.52, 119.955
114.074, 117.222, 96.8622, 112.297
108.359, 112.586, 127.205, 102.614
104.387, 115.169, 118.814, 95.9627
124.435, 119.856, 94.8476, 86.162
104.902, 109.04, 118.376, 91.7535
127.428, 103.145, 95.7875, 112.159
119.599, 101.523, 100.192, 120.338
106.622, 112.788, 107.394, 117.927
99.5734, 122.836, 97.8002, 114.44
103.933, 117.55, 112.736, 110.451
97.7945, 114.199, 111.068, 101.655
96.0816, 109.781, 96.6649, 103.275
107.545, 120.016, 114.687, 110.15
99.5753, 103.224, 112.237, 116.697
120.856, 100.849, 98.6502, 106.121
98.2585, 116.719, 117.29, 101.318
119.936, 117.039, 92.4388, 126.373
123.524, 114.938, 106.169, 124.329
125.933, 126.255, 125.757, 117.973
102.912, 116.651, 114.914, 116.211
120.829, 107.853, 118.025, 93.3344
124.526, 105.803, 115.674, 110.012
107.274, 97.6454, 109.072, 136.928
129.034, 104.365, 137.52, 114.777
106.915, 107.614, 122.548, 93.2122
130.522, 106.93, 92.1901, 138.945
106.633, 103.957, 115.999, 126.466
116.108, 117.216, 126.266, 95.6477
100.408, 109.475, 127.578, 98.1721
136.865, 107.544, 96.7089, 103.087
118.114, 136.486, 104.5, 115.127
119.701, 126.49, 128.694, 132.438
113.015, 120.735, 111.776, 113.555
112.551, 122.499, 112.491, 119.979
132, 113.995, 128.671, 140.383
169.17, 121.936, 114.677, 100.476
129.71, 99.1008, 111.722, 107.086
102.482, 112.742, 117.046, 111.14
113.635, 107.153, 128.906, 105.609
118.579, 117.484, 127.669, 122.762
101.455, 118.924, 121.859, 94.9513
119.748, 99.8848, 100.892, 115.007
132.009, 119.24, 110.264, 107.401
115.637, 112.95, 129.978, 114.636
112.937, 116.114, 97.5686, 113.534
121.405, 121.915, 127.64, 119.473
113.137, 114.075, 115.603, 118.809
124.677, 123.527, 128.689, 122.505
121.141, 119.926, 130.02, 122.652
107.999, 124.247, 117.02, 125.217
132.725, 109.949, 104.834, 125.64
149.008, 128.224, 116.071, 109.79
114.83, 123.93, 127.6, 112.824
97.3081, 114.057, 127.841, 118.577
112.983, 103.217, 131.711, 120.454
118.706, 113.116, 118.211, 126.695
104.586, 120.995, 95.0069, 133.616
112.929, 137.749, 127.856, 121.744
144.032, 131.549, 144.598, 130.669
127.225, 133.52, 123.99, 114.991
131.923, 137.139, 163.129, 153.984
147.86, 184.796, 137.932, 167.125
171.99, 180.793, 192.296, 181.855
192.381, 201.171, 220.46, 216.099
248.918, 247.476, 245.361, 279.297
304.048, 280.029, 275.845, 265.993
272.211, 279.307, 246.778, 254.095
218.659, 223, 230.623, 224.469
219.416, 204.184, 195.343, 187.19
159.907, 177.032, 168.771, 152.31
155.141, 171.107, 155.239, 137.334
172.406, 156.95, 155.465, 155.475
162.114, 148.186, 144.602, 127.905
146.032, 159.867, 169.788, 131.252
148.51, 152.304, 158.628, 160.283
151.003, 146.103, 176.306, 160.196
160.404, 205.319, 182.338, 235.275
240.854, 282.352, 391.498, 466.668
498.376, 418.392, 396.533, 357.457
354.507, 373.475, 302.429, 377.258
390.671, 390.49, 442.933, 479.456
622.709, 787.846, 1140.99, 2247.02
5100.69, 13158.6, 23787.2, 25073.3
16060, 8136.99, 3995.87, 2171.97
1475.95, 1171.06, 979.784, 863.723
795.486, 765.19, 661.428, 624.762
578.347, 569.253, 563.465, 520.783
514.521, 486.157, 463.016, 444.096
457.931, 433.94, 383.172, 454.443
438.297, 428.237, 414.878, 425.836
422.179, 461.486, 422.306, 405.467
412.439, 425.801, 427.309, 423.914
368.599, 417.996, 438.907, 431.908
446.542, 434.588, 449.898, 453.833
404.805, 404.878, 420.664, 432.192
435.728, 451.906, 478.814, 464.496
449.929, 456.38, 482.955, 455.384
441.618, 466.93, 486.222, 463.225
456.218, 442.503, 441.986, 488.862
470.388, 480.514, 514.012, 459.861
469.481, 526.953, 482.731, 493.955
506.215, 537.227, 552.846, 591.247
558.409, 531.443, 543.548, 578.79
542.572, 582.138, 575.586, 589.576
537.587, 579.346, 565.385, 606.036
561.33, 592.745, 595.478, 574.96
611.572, 584.161, 553.602, 599.025
625.854, 627.26, 635.081, 639.968
602.491, 671.505, 637.078, 654.588
688.353, 650.923, 665.714, 709.189
728.334, 757.845, 795.774, 804.687
789.404, 808.601, 812.661, 831.944
831.975, 846.546, 853.921, 767.512
783.254, 837.04, 860.198, 837.926
850.048, 887.193, 858.61, 811.255
898.148, 939.365, 955.646, 975.388
1006.98, 994.837, 992.155, 1092.96
1157.13, 1110.27, 1110.78, 1177.6
1258.01, 1274.16, 1396.77, 1676.57
2182.02, 3104.36, 3616.26, 3399.11
2685.25, 2305.72, 2166.7, 2130.9
2221.68, 2232.09, 2353.79, 2218.97
2275.03, 2200.83, 2348.53, 2440.59
2567.79, 2995.71, 3381.6, 4115.9
5264.26, 6665.07, 8361.39, 10164.3
12480.4, 15195.4, 18287.2, 21484
25168.9, 29271.7, 33504.3, 37931.4
41773.1, 45617.3, 49640.8, 53116.7
54970.6, 57767.6, 58702.1, 59640.5
59852.3, 59033.5, 57346.9, 55380.7
52238.3, 48990.3, 44753.7, 40719.8
36870.9, 32460.9, 28832.7, 24631.2
21325.1, 17859.7, 15361.6, 13185.4
11634.2, 10430.3, 9554.06, 9471.38
9282.07, 9292.64, 9743.74, 10008.1
10631.5, 10892.1, 11238.9, 11389.9
11587.8, 11549.5, 11713, 11392.4
11327.5, 11039.8, 11148, 10916.3
11245.7, 11321.4, 11607.4, 12180.4
12863.9, 13555.2, 14034.8, 15094.3
15704.3, 16562.5, 17622.8, 18479.3
19175.2, 20313.9, 21049.9, 21794.3
22907.2, 24122.1, 25252.6, 26586.8
28703.5, 31631.1, 35958.1, 41529.8
52220.2, 69815.4, 93771.8, 117948
134747, 138146, 135424, 139366
156984, 194863, 267416, 404418
701592, 1634601.5, 6376544.5, 11774902
11130826, 6591971.5, 2406486.8, 1198504.1
1536181.4, 4316996, 7246731.5, 6460924
3225300.3, 1185857, 503851, 298432
211941, 163989, 133848, 111694
96741.6, 84557.3, 75148.7, 66989.4
61713.6, 56256.8, 52356.7, 47821.6
44367.8, 41480.2, 38521.2, 36698.2
35166.9, 33676.5, 32660.8, 32028.9
31456.9, 30593.7, 30062, 30024.6
28645.5, 27074.1, 24003.8, 21097.4
20004.7, 21122, 22012.1, 22099.5
22347.1, 22448.2, 21836.4, 21641
21131.7, 20756.1, 20465.7, 19923.7
19688.5, 18946.2, 18780.3, 18244.4
17787.9, 17365.2, 17241.8, 16918.5
16504.7, 16025.4, 15870.6, 15361
15048.2, 14679.4, 14345.4, 14298.9
13754.6, 13358.9, 13104, 12828.4
12394.6, 11943, 11564.9, 11580.4
11110.2, 10686.6, 10400.1, 10199.3
9890.19, 9661.55, 9436.58, 9075.27
8831.4, 8593.74, 8361.06, 8062.7
7798.48, 7563.98, 7368.45, 6908.22
6978.05, 6721.19, 6432.47, 6178.88
5787.82, 5815.68, 5509.15, 5490.11
5147.98, 5163.26, 4810.88, 4597.78
4671.56, 4416.41, 4302.38, 4168.35
3996.92, 3848.24, 3584, 3432.16
3380.38, 3283.99, 3092.32, 3059.76
2840.04, 2847.01, 2654.01, 2772.46
2575.89, 2504.47, 2395.48, 2350.36
2261.28, 2215.2, 2163.39, 2105.47
2036.06, 2056.84, 1885.33, 1860.29
1874.29, 1777.18, 1760.64, 1667.07
1614.27, 1663, 1613.26, 1599.78
1543.08, 1503.86, 1518.18, 1471.04
1417.59, 1421.6, 1364.22, 1332.39
1313.53, 1306.35, 1217.48, 1253.47
1165.06, 1182.9, 1222.74, 1056.78
1168.99, 1087.54, 1075.96, 1051.51
1040.31, 1025.35, 1039.23, 1035.95
960.183, 963.205, 918.997, 986.506
935.745, 873.823, 858.07, 886.25
866.776, 839.824, 839.224, 870.772
767.996, 779.12, 803.32, 820.64
752.128, 718.596, 757.56, 771.703
719.759, 645.366, 719.751, 688.52
683.905, 686.926, 679.412, 602.091
629.103, 627.382, 662.421, 637.129
571.71, 582.885, 591.173, 580.078
565.881, 533.485, 548.608, 541.222
550.4, 550.739, 551.802, 586.224
546.293, 585.408, 614.291, 556.396
549.951, 522.77, 539.55, 480.114
515.235, 544.123, 482.776, 503.302
451.297, 450.942, 439.215, 460.22
419.232, 431.445, 380.655, 410.813
452.948, 396.88, 414.124, 413.691
411.994, 373.091, 437.126, 433.133
406.539, 425.083, 393.509, 403.416
363.934, 365.524, 384.063, 396.358
383.136, 397.061, 415.334, 345.208
389.409, 391.583, 360.986, 376.42
349.023, 355.236, 344.904, 336.954
333.632, 337.434, 344.396, 328.623
343.317, 337.099, 319.936, 318.147
301.282, 323.687, 270.146, 290.751
329.734, 306.862, 293.414, 280.614
272.324, 315.014, 298.587, 274.107
285.388, 280.15, 302.169, 279.342
269.205, 276.243, 294.859, 307.271
314.926, 283.588, 304.681, 293.31
282.982, 249.954, 296.542, 255.883
272.871, 271.836, 280.774, 276.213
284.289, 263.082, 260.302, 289.742
294.496, 266.999, 276.264, 297.177
233.122, 246.834, 205.95, 210.547
210.02, 212.296, 215.287, 261.554
239.588, 238.559, 226.105, 269.23
259.319, 258.713, 248.373, 237.873
245.739, 257.993, 222.847, 226.092
214.49, 227.102, 259.632, 225.713
263.317, 245.356, 236.392, 249.63
238.844, 259.971, 232.231, 239.408
258.479, 221.926, 253.735, 231.857
237.58, 226.79, 281.751, 268.05
237.731, 247.202, 267.06, 243.784
250.614, 224.065, 223.413, 240.569
229.813, 222.527, 257.801, 236.44
232.503, 252.463, 226.649, 201.743
231.062, 237.635, 231.172, 259.502
255.158, 244.539, 250.795, 235.042
228.434, 247.417, 232.491, 226.836
240.772, 228.27, 243.861, 226.591
199.975, 226.41, 226.192, 232.826
224.682, 220.231, 218.753, 234.269
232.816, 223.178, 240.129, 214.968
204.731, 213.055, 212.173, 248.751
233.762, 218.113, 207.757, 220.58
224.025, 219.121, 205.556, 199.466
229.525, 199.715, 197.26, 209.807
213.806, 208.589, 200.075, 214.263
212.32, 213.341, 204.001, 215.209
214.564, 189.689, 184.439, 184.564
198.794, 207.776, 195.707, 204.817
205.67, 217.785, 227.41, 209.046
202.716, 189.903, 194.67, 207.789
191.431, 229.207, 192.263, 171.528
234.804, 172.783, 176.962, 193.116
215.718, 196.386, 183.414, 162.107
194.798, 202.626, 178.54, 205.758
187.991, 184.356, 228.167, 207.451
201.332, 219.587, 185.985, 185.69
215.317, 177.352, 209.79, 195.49
196.067, 165.145, 166.547, 184.545
195.714, 173.036, 185.696, 187.759
195.323, 155.53, 170.373, 166.969
194.287, 170.933, 184.714, 184.762
161.215, 177.478, 166.097, 176.402
164.01, 177.603, 165.466, 201.807
176.451, 149.037, 168.845, 176.675
168.72, 179.064, 157.73, 167.135
165.496, 178.047, 165.785, 164.625
161.023, 167.229, 173.592, 173.559
159.541, 188.801, 171.959, 166.845
179.786, 162.19, 146.622, 156.136
146.8, 165.325, 154.628, 170.536
178.975, 154.08, 159.651, 154.061
175.451, 170.477, 149.676, 159.799
173.715, 144.315, 153.173, 172.144
161.579, 153.351, 170.034, 168.726
156.6, 196.916, 163.712, 176.124
196.213, 174.305, 177.401, 150.177
155.212, 160.581, 174.299, 175.935
175.538, 170.267, 154.047, 177.444
168.988, 158.682, 162.772, 159.756
143.493, 192.583, 143.689, 171.509
169.571, 168.139, 155.843, 165.003
151.125, 169.498, 141.5, 179.296
155.916, 147.788, 163.546, 168.384
165.554, 148.547, 173.932, 142.054
176.521, 183.734, 143.773, 174.926
143.777, 152.106, 152.094, 133.779
182.693, 150.474, 180.422, 176.635
165.958, 158.448, 137.132, 155.871
167.951, 152.087, 162.696, 168.679
154.655, 154.587, 167.605, 151.818
178.587, 142.592, 154.997, 157.653
166.413, 143.53, 155.004, 149.429
182.08, 167.933, 167.579, 154.925
146.87, 152.211, 151.746, 156.714
155.553, 139.878, 137.151, 165.872
160.786, 153.463, 155.693, 164.99
139.832, 134.737, 170.603, 156.599
126.369, 135.644, 164.477, 142.727
138.622, 153.39, 152.202, 135.384
140.852, 125.559, 144.186, 167.827
139.938, 159.359, 141.59, 128.823
145.675, 131.544, 148.74, 129.523
151.716, 139.811, 145.409, 151.823
150.44, 140.997, 141.414, 120.712
135.81, 148.416, 141.775, 138.834
144.56, 150.045, 157.794, 133.354
146.432, 132.523, 151.271, 158.623
137.554, 145.258, 128.017, 144.786
153.465, 138.825, 144.703, 138.874
149.701, 136.92, 118.405, 147.263
117.142, 133.405, 146.845, 145.026
125.852, 134.694, 143.547, 142.213
131.552, 142.437, 141.987, 136.044
136.351, 116.511, 136.235, 135.882
130.136, 115.601, 153.758, 144.383
145.864, 137.037, 146.711, 125.667
127.473, 125.657, 136.7, 123.051
150.316, 132.607, 122.628, 141.391
128.647, 100.889, 122.33, 145.264
139.522, 127.749, 123.841, 133.937
104.628, 133.908, 128.895, 140.226
131.448, 109.721, 100.386, 132.744
132.618, 120.561, 122.666, 120.905
126.051, 121.902, 109.963, 100.557
122.623, 139.408, 165.93, 123.604
137.176, 128.086, 121.271, 139.125
153.784, 126.19, 137.75, 126.563
128.414, 129.498, 124.362, 127.948
117.437, 123.354, 129.86, 125.001
119.985, 146.204, 131.422, 113.488
117.593, 111.413, 129.771, 127.121
107.916, 130.595, 120.016, 96.5878
117.041, 113.502, 124.02, 106.877
128.227, 127.432, 129.55, 140.041
138.95, 118.483, 135.424, 127.66
116.447, 128.932, 110.915, 122.418
117.594, 133.834, 140.043, 111.251
118.994, 119.743, 118.556, 106.283
94.6614, 110.604, 115.291, 97.7426
124.453, 125.385, 110.283, 129.693
97.1566, 129.891, 127.82, 114.557
113.685, 108.752, 120.069, 103.33
152.212, 110.118, 137.669, 113.017
129.958, 122.24, 106.464, 115.818
128.652, 113.43, 98.7756, 128.723
107.941, 114.641, 125.553, 102.676
131.95, 106.278, 112.829, 124.701
124.327, 106.736, 115.872, 109.392
117.52, 128.693, 117.115, 98.7803
111.615, 104.687, 106.362, 113.009
111.593, 123.058, 114.972, 107.142
124.138, 117.416, 126.027, 103.215
124.61, 108.92, 118.828, 122.114
102.552, 109.668, 113.732, 123.371
108.198, 110.372, 104.236, 118.98
115.935, 95.5451, 100.576, 122.434
97.0216, 126.639, 98.3663, 108.799
112.609, 117.3, 116.387, 101.756
144.431, 122.906, 113.586, 101.731
108.389, 106.554, 141.13, 124.561
104.968, 118.778, 104.593, 110.781
110.762, 101.869, 100.752, 107.496
125.735, 116.532, 114.245, 102.367
121.067, 106.262, 108.943, 91.4707
87.9469, 99.4194, 115.465, 113.719
121.914, 105.541, 115.623, 115.804
105.816, 127.767, 100.105, 120.511
99.8719, 111.225, 105.615, 104.685
128.1, 107.422, 114.815, 101.124
102.693, 118.865, 101.434, 110.378
108.528, 114.552, 107.61, 114.008
98.3989, 94.4407, 107.384, 98.7983
106.009, 119.699, 125.261, 109.569
114.842, 107.128, 93.9576, 106.737
106.018, 105.884, 114.572, 95.3535
104.271, 113.111, 111.215, 102.263
105.383, 105.71, 128.201, 96.29
106.319, 113.641, 123.196, 110.693
107.592, 108.602, 100.834, 91.9891
110.914, 111.472, 112.817, 118.855
102.791, 100.364, 131.517, 99.5253
101.699, 111.746, 106.889, 79.767
107.232, 118.23, 96.6366, 118.871
105.684, 114.996, 118.349, 110.439
122.448, 121.784, 107.843, 99.7522
123.613, 104.631, 117.717, 90.5713
101.532, 106.481, 88.899, 120.873
120.451, 109.723, 88.6952, 120.263
107.626, 105.161, 102.571, 102.704
90.7344, 112.889, 100.721, 111.711
110.586, 94.2012, 110.292, 97.7242
97.8077, 117.438, 117.885, 93.6064
100.098, 109.98, 128.973, 124.088
103.102, 114.634, 100.872, 125.553
111.054, 98.9106, 96.6289, 116.613
96.3083, 117.163, 96.7662, 110.454
114.576, 125.995, 106.556, 125.573
110.683, 122.658, 118.468, 105.726
118.718, 110.927, 114.624, 102.537
121.45, 96.4059, 113.6, 111.4
101.773, 108.72, 101.588, 98.4925
110.69, 97.3677, 103.038, 86.9095
108.733, 99.1307, 110.464, 106.473
95.7524, 113.236, 102.919, 90.5589
108.975, 108.507, 112.342, 101.053
98.9727, 118.718, 99.6495, 106.526
95.3529, 116.482, 87.14, 111.842
84.8206, 129.399, 89.8148, 111.34
113.905, 111.76, 106.687, 114.817
113.334, 97.9155, 98.5426, 96.6793
115.681, 109.521, 108.538, 121.385
121.58, 116.892, 119.572, 102.544
107.505, 89.6715, 102.57, 86.6539
102.052, 109.163, 104.743, 115.472
123.401, 112.27, 96.4409, 114.997
94.7272, 110.858, 96.6956, 132.368
116.619, 137.029, 107.073, 115.627
114.699, 110.642, 101.537, 121.376
103.712, 108.505, 98.6894, 121.648
105.72, 105.49, 110.661, 104.749
100.001, 96.8836, 101.699, 108.738
115.753, 124.081, 122.678, 112.657
108.834, 96.5662, 107.986, 132.419
96.076, 103.775, 112.097, 94.8019
97.6899, 115.354, 105.883, 95.4919
105.569, 114.625, 94.7655, 121.505
108.835, 104.671, 79.4426, 98.7911
97.706, 96.5715, 107.749, 117.357
103.802, 104.582, 95.7308, 97.7441
96.0616, 94.9143, 104.232, 105.615
94.5155, 110.717, 96.3288, 115.187
108.439, 102.751, 97.0822, 92.6075
99.0086, 88.8501, 108.062, 102.46
112.449, 114.3, 127.427, 85.0349
123.219, 112.287, 108.689, 102.384
104.995, 94.7559, 115.058, 111.584
104.997, 99.9277, 94.9096, 105.476
93.2503, 83.6705, 106.431, 99.5733
116.788, 108.606, 115.077, 108.543
97.7367, 113.662, 114.454, 113.728
86.9559, 94.7502, 122.908, 103.029
106.577, 99.9755, 107.745, 109.758
113.856, 107.106, 94.0144, 104.684
104.604, 101.984, 102.79, 113.807
88.7093, 97.9902, 91.9354, 99.1145
98.7818, 95.3458, 112.617, 96.1806
96.1363, 103.001, 120.715, 104.814
111.477, 105.601, 108.416, 95.6173
109.949, 87.7146, 97.929, 111.923
88.644, 108.684, 102.507, 118.372
112.971, 88.9967, 95.7615, 107.708
112.741, 120.726, 102.9, 104.239
96.6401, 105.713, 117.37, 102.807
81.5204, 89.8286, 110.739, 105.734
102.954, 115.787, 97.9472, 112.695
79.911, 91.5806, 94.7304, 98.4375
102.864, 117.569, 109.422, 87.8428
91.8484, 102.745, 103.831, 93.5133
98.994, 107.423, 116.342, 101.58
98.7709, 102.981, 101.874, 115.442
101.004, 111.008, 99.7642, 108.656
88.4989, 93.6245, 124.271, 119.394
106.237, 94.814, 101.746, 100.731
94.994, 101.048, 82.8813, 109.448
91.0298, 102.342, 103.503, 96.9513
87.5325, 101.911, 101.301, 89.5163
130.68, 100.881, 112.82, 89.1548
94.691, 101.911, 113.347, 90.346
90.816, 110.556, 90.5154, 114.321
101.193, 118.916, 85.8054, 100.687
85.6724, 110.399, 95.8659, 98.4502
98.0381, 102.725, 95.2021, 92.2984
92.0923, 120.943, 82.2854, 101.35
94.8948, 95.8752, 100.628, 104.484
110.229, 88.7086, 109.584, 92.7002
107.519, 104.619, 102.454, 92.115
74.8117, 93.7493, 93.9028, 87.7459
104.587, 105.305, 116.705, 116.613
82.561, 116.515, 96.975, 111.802
101.918, 103.15, 115.481, 106.956
91.8027, 103.158, 99.8901, 101.624
116.432, 100.228, 95.5561, 88.0207
105.839, 90.2436, 104.904, 104.829
98.7531, 99.509, 100.301, 107.048
101.253, 100.929, 100.526, 93.7685
104.432, 123.167, 100.579, 94.4889
108.635, 95.9206, 111.021, 101.04
113.608, 107.885, 88.4339, 107.682
106.197, 110.665, 97.0559, 90.0051
96.756, 97.6514, 97.9643, 100.747
96.1559, 97.2956, 107.983, 89.4274
99.7739, 105.75, 98.7448, 95.7423
119.465, 108.66, 118.623, 92.1988
90.8615, 117.302, 118.664, 110.602
122.545, 105.497, 108.466, 109.8
117.557, 101.819, 101.571, 95.4766
100.958, 96.7382, 107.23, 99.2418
94.8752, 93.5119, 119.721, 96.655
89.8772, 92.3937, 116.938, 80.8223
100.833, 103.673, 100.113, 107.37
94.8025, 107.218, 144.564, 113.118
102.788, 97.9927, 112.564, 95.8267
136.015, 123.684, 107.926, 107.934
124.533, 104.379, 100.86, 101.358
96.3006, 113.263, 104.644, 128.665
135.638, 122.918, 103.772, 105.214
83.6575, 116.871, 101.396, 118.735
98.5418, 121.525, 126.531, 116.139
103.368, 120.623, 117.843, 99.5044
132.016, 112.643, 116.656, 110.295
139.846, 151.398, 161.974, 247.781
385.427, 854.637, 1404.32, 1478.09
1032, 511.925, 294.038, 222.69
178.484, 149.507, 171.258, 228.119
283.086, 486.822, 786.446, 845.895
633.812, 406.884, 263.553, 205.812
146.45, 138.91, 136.915, 123.492
113.909, 126.792, 107.703, 112.515
136.346, 113.914, 126.858, 103.971
112.478, 116.896, 103.614, 102.09
98.7408, 111.348, 95.6848, 94.981
114.41, 110.925, 111.962, 113.036
114.544, 98.0832, 108.498, 95.8139
102.28, 106.76, 115.866, 106.729
115.843, 120.035, 115.815, 95.4769
111.236, 105.621, 106.766, 102.559
97.3133, 119.435, 107.137, 109.717
101.38, 106.073, 107.217, 95.8666
105.738, 102.368, 99.6265, 115.147
98.4441, 106.98, 117.363, 114.635
113.814, 108.966, 128.659, 112.707
106.045, 134.531, 101.474, 91.6874
103.52, 99.5612, 114.782, 105.363
111.425, 95.838, 103.76, 105.572
123.146, 112.767, 103.583, 106.239
107.086, 114.962, 102.55, 109.797
105.764, 94.7784, 110.72, 112.791
100.55, 113.132, 100.843, 110.282
112.663, 109.735, 122.962, 104.506
96.1829, 106.796, 119.433, 111.854
99.4646, 116.399, 105.708, 107.831
108.637, 97.9377, 96.8179, 113.508
104.001, 114.916, 101.701, 99.642
101.773, 123.195, 118.953, 91.5998
105.189, 114.052, 122.758, 101.484
105.622, 124.688, 114.026, 104.76
116.671, 105.294, 125.736, 108.167
108.887, 123.711, 113.684, 103.041
98.5177, 96.8076, 96.0195, 97.8788
93.9032, 107.902, 111.628, 107.589
99.6003, 91.575, 134.598, 103.996
109.929, 126.854, 100.911, 111.531
107.242, 108.71, 109.812, 109.122
100.785, 112.358, 100.836, 102.902
93.8686, 108.218, 109.84, 116.963
98.6002, 114.209, 84.6221, 101.784
91.8091, 101.995, 109.895, 105.155
105.918, 107.86, 97.0549, 112.288
103.839, 88.6786, 97.9315, 122.822
100.155, 111.151, 87.9248, 110.68
113.583, 123.561, 92.9582, 91.89
107.904, 92.6883, 105.279, 86.8609
109.512, 120.78, 117.827, 119.611
92.8132, 116.907, 101.134, 102.382
98.6924, 107.648, 98.3212, 102.765
108.781, 119.55, 111.023, 110.595
112.3, 103.921, 100.914, 114.497
124.318, 96.6239, 101.923, 103.823
98.4023, 109.963, 97.0215, 95.3988
115.622, 89.8997, 110.767, 111.843
99.5735, 101.859, 95.6838, 106.4
110.521, 94.9089, 117.644, 94.8191
106.076, 112.206, 124.722, 107.814
113.324, 111.492, 120.958, 112.695
88.6321, 121.146, 87.607, 116.431
94.709, 89.6371, 96.062, 102.075
114.905, 112.78, 87.0513, 94.0707
94.8981, 97.067, 102.651, 103.489
117.563, 97.8134, 107.579, 104.683
111.371, 112.327, 94.042, 96.7385
106.719, 113.001, 119.447, 109.439
103.991, 85.3762, 99.9822, 109.845
96.9932, 97.6491, 110.973, 112.889
95.3665, 96.3112, 98.2674, 103.389
89.6934, 96.7322, 90.6635, 99.8217
117.216, 87.6552, 108.221, 87.6314
105.996, 120.52, 112.277, 98.7791
104.615, 120.779, 99.6869, 94.632
102.971, 100.656, 108.558, 100.8
98.3911, 99.9436, 97.5356, 115.559
118.501, 113.396, 103.873, 113.032
98.6819, 106.902, 111.842, 102.522
111.529, 97.8065, 96.9629, 98.8823
107.829, 115.448, 106.411, 105.811
119.158, 98.461, 109.548, 113.797
100.696, 74.6145, 108.003, 118.584
96.8208, 108.274, 129.519, 116.492
107.836, 110.637, 98.954, 92.6174
119.342, 98.5056, 97.007, 81.8273
99.641, 98.8837, 88.7524, 114.732
86.6391, 97.7309, 107.051, 91.046
87.0995, 115.865, 102.553, 92.706
112.032, 112.357, 94.7778, 112.592
112.484, 103.479, 114.273, 114.667
107.476, 93.5314, 101.213, 104.923
118.868, 104.651, 94.5085, 107.601
118.141, 108.876, 114.295, 103.614
94, 108.47, 96.4763, 106.785
102.353, 104.482, 93.9424, 98.5643
111.167, 105.769, 114.55, 118.415
104.666, 106.419, 104.955, 98.7184
95.3413, 96.7873, 119.721, 99.8851
100.052, 107.038, 108.477, 101.613
104.175, 103.476, 102.07, 87.5894
108.313, 117.846, 116.555, 115.22
101.44, 95.6542, 118.119, 82.5519
92.5266, 101.568, 118.972, 125.642
103.482, 126.292, 104.119, 89.6861
100.174, 118.397, 104.552, 122.794
85.2787, 92.5682, 98.6576, 109.167
77.5629, 100.765, 95.5984, 100.436
108.124, 102.678, 101.994, 98.8703
100.925, 107.817, 102.274, 114.749
97.1835, 96.7971, 110.828, 97.6837
112.469, 108.702, 95.849, 97.3524
109.933, 105.782, 97.9086, 99.7343
116.318, 98.1289, 109.441, 110.677
88.1919, 100.779, 116.062, 100.435
96.0165, 91.347, 107.875, 96.7791
96.7021, 88.6546, 102.034
*END

*EOF